Sensor Model:   DT-600
Serial Number:  Standard Curve
Interpolation Method:   Straight Line
SetPoint Limit: 500.      (Kelvin)
Data Format:    2      (Volts/Kelvin)
Number of Breakpoints:   38

No.   Units      Temperature (K)

  1  0.09058       500.0
  2  0.11251       490.0
  3  0.13545       480.0
  4  0.18275       460.0
  5  0.27852       420.0
  6  0.38485       375.0
  7  0.50182       325.0
  8  0.58272       290.0
  9  0.65102       260.0
 10  0.71815       230.0
 11  0.77295       205.0
 12  0.82665       180.0
 13  0.86857       160.0
 14  0.90950       140.0
 15  0.94909       120.0
 16  0.97769       105.0
 17  1.00531        90.0
 18  1.03172        75.0
 19  1.05692        60.0
 20  1.08274        44.0
 21  1.09382        37.0
 22  1.10242        32.0
 23  1.10822        29.0
 24  1.11277        27.0
 25  1.11566        26.0
 26  1.11945        25.0
 27  1.12592        24.0
 28  1.14082        23.0
 29  1.16280        22.0
 30  1.18155        21.0
 31  1.26752        15.5
 32  1.31316        13.0
 33  1.36969        10.5
 34  1.44226         8.0
 35  1.57312         4.4
 36  1.61799         2.8
 37  1.64059         1.7
 38  1.64421         1.4
