Sensor Model:   CX-RX-0.3B
Serial Number:  UMEN102
Interpolation Method:   Lagrangian
SetPoint Limit: 40.      (Kelvin)
Data Format:    4      (Log Ohms/Kelvin)
Number of Breakpoints:   64

No.   Units      Temperature (K)

  1  1049.09        40.0
  2  1050.14        39.0
  3  1051.24        38.0
  4  1052.39        37.0
  5  1053.61        36.0
  6  1054.89        35.0
  7  1056.24        34.0
  8  1057.67        33.0
  9  1059.19        32.0
 10  1060.81        31.0
 11  1062.53        30.0
 12  1064.38        29.0
 13  1066.35        28.0
 14  1068.47        27.0
 15  1070.75        26.0
 16  1073.21        25.0
 17  1075.88        24.0
 18  1078.78        23.0
 19  1081.93        22.0
 20  1085.37        21.0
 21  1089.14        20.0
 22  1093.27        19.0
 23  1097.86        18.0
 24  1102.98        17.0
 25  1105.79        16.5
 26  1108.76        16.0
 27  1111.92        15.5
 28  1115.29        15.0
 29  1118.90        14.5
 30  1122.77        14.0
 31  1126.91        13.5
 32  1131.37        13.0
 33  1136.16        12.5
 34  1141.29        12.0
 35  1146.82        11.5
 36  1152.89        11.0
 37  1159.62        10.5
 38  1166.99        10.0
 39  1174.96         9.5
 40  1183.71         9.0
 41  1193.49         8.5
 42  1204.49         8.0
 43  1216.95         7.5
 44  1231.21         7.0
 45  1247.65         6.5
 46  1266.75         6.0
 47  1284.23         5.6
 48  1315.08         5.0
 49  1353.69         4.4
 50  1394.45         3.9
 51  1446.60         3.4
 52  1517.11         2.9
 53  1591.05         2.5
 54  1672.41         2.2
 55  1805.48         1.8
 56  1942.79         1.5
 57  2066.35         1.3
 58  2234.13         1.1
 59  2503.00         0.9
 60  2984.44         0.7
 61  3959.19         0.4
 62  4885.88         0.4
 63  4897.70         0.3
 64  5335.42         0.3
